Data from 0.4bar_Subt2__0__18-25-03-769.txt Node

Date: Thu Jan 06 18:25:03 CET 2022
User: fsatto
Spectrometer: OFX01956
Trigger mode: 0
Integration Time (sec): 1.000000E-2
Scans to average: 10
Nonlinearity correction enabled: false
Boxcar width: 0
Storing dark spectrum: false
XAxis mode: Wavelengths
Number of Pixels in Spectrum: 2136
>>>>>Begin Spectral Data<<<<<
158.236	-8.4
158.705	-9
159.174	-4.2
159.643	-7.6
160.112	-9.8
160.582	-3.3
161.051	-10.7
161.52	-11.9
161.988	-8.2
162.457	-11.8
162.926	-2.5
163.395	-10.6
163.864	-3.5
164.332	-10.8
164.801	-3.4
165.269	-4.1
165.738	-5.9
166.206	-7.9
166.675	-7.6
167.143	-11.5
167.612	-0.9
168.08	-8.3
168.548	-8.7
169.016	-2.1
169.484	-5.7
169.952	-7.1
170.42	-13.6
170.888	-2.5
171.356	-10.1
171.824	-6.5
172.292	-12.5
172.759	-12.9
173.227	-8.3
173.695	-9.8
174.162	-5.1
174.63	-0.5
175.097	-13.3
175.565	-7
176.032	-8.5
176.499	-6
176.967	-6.4
177.434	-11.5
177.901	-0.7
178.368	-14.5
178.835	-13.3
179.302	-5.8
179.769	-7.5
180.236	-10
180.703	-3.7
181.17	-6.9
181.637	-3.7
182.103	-4.3
182.57	-3
183.036	-8.2
183.503	-3.3
183.97	-9
184.436	-3.8
184.902	-6.8
185.369	-6.3
185.835	3.3
186.301	-6.4
186.767	-5.9
187.234	-5.1
187.7	-8.1
188.166	-8.7
188.632	-12.6
189.098	-4.3
189.563	-12.1
190.029	-8.1
190.495	-8.6
190.961	-10.9
191.426	-7.9
191.892	-9.7
192.358	-6.7
192.823	-8.4
193.289	-10.1
193.754	-5
194.219	-11.1
194.685	-10.7
195.15	-8.7
195.615	0.4
196.08	-2
196.545	-8.9
197.01	-5.2
197.475	-8
197.94	1.8
198.405	0.2
198.87	-11.7
199.335	-1.9
199.8	-6.1
200.264	35.8
200.729	37.9
201.193	32.4
201.658	39.3
202.122	46.2
202.587	46
203.051	34.6
203.516	45
203.98	46.9
204.444	56.3
204.908	44.3
205.372	57.1
205.836	63.3
206.3	52.8
206.764	61
207.228	61.3
207.692	71.9
208.156	73.7
208.62	72.1
209.083	78.9
209.547	81
210.011	99.3
210.474	109.7
210.938	128.6
211.401	146.7
211.864	171.4
212.328	178.5
212.791	198.1
213.254	244
213.717	280.2
214.181	320.8
214.644	390.9
215.107	479.2
215.57	542.4
216.033	642.2
216.495	780.8
216.958	983
217.421	1133.6
217.884	1299.6
218.346	1435.1
218.809	1573.3
219.272	1744.3
219.734	1948
220.196	2106.9
220.659	2271.8
221.121	2380.7
221.584	2505.2
222.046	2740.7
222.508	2959.4
222.97	3185
223.432	3368.6
223.894	3641.8
224.356	3930.5
224.818	4266.9
225.28	4700.8
225.742	5283.9
226.204	6220.4
226.665	6962
227.127	7294.8
227.589	7700.4
228.05	8317.1
228.512	8826.4
228.973	9226.7
229.435	9045.7
229.896	8785.6
230.357	9157
230.818	10252.8
231.28	11072.6
231.741	11698
232.202	11705.3
232.663	11399.7
233.124	11618.3
233.585	12891
234.046	14220.5
234.507	14708.9
234.967	14205.1
235.428	13723.9
235.889	13505.5
236.349	14170.9
236.81	15747.3
237.271	17028.1
237.731	16637.6
238.191	15715.1
238.652	15244.3
239.112	16204.3
239.572	18121.9
240.033	19391.3
240.493	18287.9
240.953	16397.2
241.413	15442.7
241.873	16051.9
242.333	17363.2
242.793	17590.1
243.253	16776.9
243.712	16297.7
244.172	16078.2
244.632	16254.4
245.092	17410.6
245.551	18331.3
246.011	18563.1
246.47	18351
246.93	19079.4
247.389	21243.7
247.848	23794
248.308	24636.7
248.767	24571.2
249.226	24323.7
249.685	24516.1
250.144	24994.7
250.603	26739.5
251.062	27940.5
251.521	27188.6
251.98	25635.5
252.439	24604.9
252.897	24452.6
253.356	25785.2
253.815	26765.8
254.273	26516.8
254.732	25261.2
255.19	22356.5
255.649	20191.2
256.107	20276.2
256.566	20926.1
257.024	22010.4
257.482	21547.7
257.94	19953.6
258.398	20290.3
258.856	20846.7
259.315	21001.1
259.772	20847.8
260.23	19981.2
260.688	18572.6
261.146	17169.1
261.604	16091.4
262.062	16295.2
262.519	17297.3
262.977	17733.5
263.434	16428.2
263.892	15117.2
264.349	14578.5
264.807	14535
265.264	14268
265.721	13974.1
266.179	13690.5
266.636	12642
267.093	11522.1
267.55	11231.7
268.007	11609.1
268.464	12189.8
268.921	12192.2
269.378	11423.1
269.835	10932
270.291	10874.5
270.748	10882.7
271.205	11136.6
271.661	11176.9
272.118	10801.9
272.574	10621.6
273.031	10538.8
273.487	10271.7
273.944	10048.1
274.4	10069
274.856	10149.6
275.312	9625.2
275.768	9112.2
276.225	8817.1
276.681	8749.9
277.137	8566
277.593	8186.4
278.048	7836.9
278.504	7685.8
278.96	7248.2
279.416	6747.7
279.871	6198.4
280.327	5925.8
280.783	5884.5
281.238	5793.3
281.694	5540.3
282.149	5259.8
282.604	5065.8
283.06	4916.5
283.515	4743.9
283.97	4592.7
284.425	4411.8
284.88	4335
285.335	4233.4
285.79	3849.5
286.245	3534.4
286.7	3557.4
287.155	3598.3
287.61	3449.4
288.064	3365.1
288.519	3426.5
288.974	3332.9
289.428	3142.8
289.883	3070.8
290.337	3059.2
290.792	3100.8
291.246	3066.8
291.7	3029.4
292.155	2915.5
292.609	2750.9
293.063	2577.2
293.517	2451.2
293.971	2356.6
294.425	2269
294.879	2191.1
295.333	2046.7
295.787	1878.1
296.241	1742.6
296.694	1706.7
297.148	1672.6
297.602	1615.5
298.055	1544.8
298.509	1428.1
298.962	1277.4
299.416	1173.7
299.869	1142.1
300.322	1108
300.775	1062.1
301.229	961.7
301.682	888.8
302.135	803.7
302.588	711.2
303.041	679.2
303.494	624.5
303.947	592.5
304.4	553.9
304.852	496.7
305.305	473.8
305.758	437.8
306.21	381.4
306.663	370
307.115	352
307.568	334
308.02	338.7
308.473	300.3
308.925	281.6
309.377	255.3
309.829	235.5
310.282	219.8
310.734	218.5
311.186	199.5
311.638	188.9
312.09	172.5
312.542	162.9
312.993	149.7
313.445	138.9
313.897	124.7
314.349	122
314.8	111
315.252	106.1
315.703	107.9
316.155	106.6
316.606	100.3
317.058	85.1
317.509	83.4
317.96	68.6
318.411	70.9
318.863	69
319.314	60
319.765	70
320.216	64.1
320.667	50.7
321.117	45.1
321.568	43.6
322.019	41
322.47	49.6
322.921	33.6
323.371	34.5
323.822	27.6
324.272	20.9
324.723	27.4
325.173	11.3
325.623	18.1
326.074	19.5
326.524	18.5
326.974	4.9
327.424	27.3
327.874	37.4
328.325	18.5
328.775	20.7
329.224	20.6
329.674	11
330.124	11.6
330.574	14.1
331.024	8.6
331.473	9.8
331.923	5.2
332.373	9.4
332.822	5.5
333.272	4.4
333.721	2
334.17	4.5
334.62	8
335.069	8.8
335.518	-0.4
335.967	2.4
336.416	3.8
336.865	4.3
337.314	1
337.763	1.8
338.212	2
338.661	4.9
339.11	-2.1
339.558	7.2
340.007	-2.5
340.456	0
340.904	5.2
341.353	4.8
341.801	-3.4
342.25	-11.6
342.698	-7.6
343.146	2.3
343.595	2.3
344.043	-8.3
344.491	-3.8
344.939	-6.5
345.387	2
345.835	1.1
346.283	-1.6
346.731	9
347.179	-6.4
347.626	0.2
348.074	-2.2
348.522	4.7
348.969	-0.3
349.417	3.7
349.865	-7.8
350.312	-5.7
350.759	-11.6
351.207	-10.3
351.654	-13
352.101	-6.3
352.548	5.5
352.996	-8.5
353.443	7.4
353.89	-5.1
354.337	-17.2
354.784	-5.7
355.231	-9.5
355.677	-2.7
356.124	-2.5
356.571	-2.5
357.018	-3
357.464	-8.5
357.911	4.6
358.357	5.8
358.804	-4.9
359.25	7.7
359.696	-2.9
360.143	-1.2
360.589	1.6
361.035	-1.7
361.481	1.9
361.927	9.1
362.373	1
362.819	1.7
363.265	-4.4
363.711	-5.9
364.157	-10.8
364.603	-5.7
365.048	0.1
365.494	-9.6
365.94	-7.8
366.385	-12.8
366.831	-2.3
367.276	-1.7
367.722	-6.8
368.167	-12.9
368.612	-0.7
369.057	-6.1
369.503	-1.4
369.948	-11.1
370.393	-3.5
370.838	-0.8
371.283	2.9
371.728	-8.2
372.173	0.5
372.617	0
373.062	-3.8
373.507	-3.1
373.951	-9.3
374.396	2.2
374.841	-3.3
375.285	-8.3
375.729	-9
376.174	-5.8
376.618	-9.8
377.062	-2.2
377.507	-3.4
377.951	-8.7
378.395	-6.5
378.839	3.5
379.283	-2
379.727	-3.3
380.171	-2.7
380.615	-5.6
381.059	-9.8
381.502	1.5
381.946	-5.6
382.39	-6.4
382.833	-2.4
383.277	-6.5
383.72	-0.8
384.164	-2.1
384.607	-3.9
385.05	0.9
385.494	-2.2
385.937	-7.6
386.38	2.9
386.823	-2.6
387.266	0.9
387.709	0
388.152	-8.9
388.595	-4.4
389.038	-1.5
389.481	-6.8
389.923	-0.7
390.366	-8.6
390.809	-19.1
391.251	1.1
391.694	1.4
392.136	-0.8
392.579	-6.8
393.021	-7
393.463	-8.3
393.906	-1.4
394.348	-12.4
394.79	1.7
395.232	-5.8
395.674	-2.9
396.116	1.9
396.558	-4.1
397	0.8
397.442	2.7
397.884	2.5
398.325	-1.7
398.767	-1.4
399.209	-1.7
399.65	3.9
400.092	-7.2
400.533	-10.1
400.974	-12.4
401.416	-14.5
401.857	-4.4
402.298	-4.1
402.74	-11.2
403.181	-1.9
403.622	-5.8
404.063	0.6
404.504	-9
404.945	-3.9
405.386	2.6
405.826	-0.1
406.267	-6.4
406.708	0.5
407.149	-4.5
407.589	-8.2
408.03	-3.2
408.47	1
408.911	-6.1
409.351	1.9
409.791	-5.6
410.232	-4.2
410.672	-5.5
411.112	-2.4
411.552	0
411.992	-8.6
412.432	-4.7
412.872	-1.7
413.312	0.8
413.752	-11.2
414.192	6.4
414.632	-9.3
415.071	-6.7
415.511	2.5
415.951	-3.9
416.39	2.4
416.83	2.7
417.269	-8
417.708	0.3
418.148	-11.1
418.587	-6.4
419.026	-11.9
419.465	-9.5
419.904	5.4
420.344	3.6
420.783	-3.6
421.221	-2.3
421.66	-14.1
422.099	-15.2
422.538	-4.2
422.977	-0.8
423.415	-10.9
423.854	-9.4
424.293	-9.1
424.731	-7.9
425.17	-9
425.608	3.3
426.046	-5.7
426.485	-10.3
426.923	-6.4
427.361	-7.7
427.799	-5.6
428.237	-9
428.675	-2.6
429.113	-3.9
429.551	-4.6
429.989	-7.5
430.427	-0.5
430.865	-7.8
431.303	-3.6
431.74	-1.4
432.178	-17.6
432.615	-7.2
433.053	-13
433.49	-8.3
433.928	-4.2
434.365	1.1
434.802	-14.6
435.24	1.6
435.677	-3.1
436.114	-5.2
436.551	1.9
436.988	5.9
437.425	1
437.862	-4.3
438.299	-10.3
438.736	-4.3
439.172	-2.3
439.609	-6.7
440.046	-12.2
440.482	-8.2
440.919	1.5
441.355	0.2
441.792	-5.9
442.228	-7
442.665	-1.1
443.101	-3.3
443.537	-7.8
443.973	2.2
444.409	1.1
444.845	7.2
445.281	-3.4
445.717	-17.2
446.153	-9.6
446.589	-6.2
447.025	-0.2
447.461	0
447.896	-6.9
448.332	2.5
448.768	3.4
449.203	-5.3
449.639	-5
450.074	4.8
450.509	-2.5
450.945	-1.7
451.38	-7.5
451.815	-6.6
452.25	-4.7
452.685	5.6
453.12	-4.6
453.555	-7.2
453.99	-5.3
454.425	-1
454.86	-14.4
455.295	-4.6
455.73	-6.9
456.164	0.4
456.599	-0.1
457.033	8.6
457.468	-5.9
457.902	-6.2
458.337	5.2
458.771	-10.1
459.205	-6.4
459.64	-5.8
460.074	4.6
460.508	-2.1
460.942	-1.7
461.376	-2.3
461.81	-7.5
462.244	-6.9
462.678	-16.9
463.112	1
463.545	-1.2
463.979	1.1
464.413	0.6
464.846	8
465.28	-3.3
465.713	0.3
466.147	-1.9
466.58	2.6
467.014	-7.7
467.447	1.6
467.88	-5.9
468.313	8.9
468.746	3.9
469.179	-3.9
469.612	-0.4
470.045	-3.1
470.478	-1.2
470.911	-1.5
471.344	6.3
471.777	0.4
472.209	-3.5
472.642	-4.8
473.074	-4.7
473.507	1.3
473.939	-10.1
474.372	-3.3
474.804	6.4
475.236	9.6
475.669	2.7
476.101	5.9
476.533	1
476.965	5.3
477.397	3.2
477.829	10.5
478.261	-2.3
478.693	10.4
479.125	6.6
479.557	3.5
479.988	-4.8
480.42	2.8
480.852	4.5
481.283	5.2
481.715	1.6
482.146	4.9
482.577	3.4
483.009	-4
483.44	11.6
483.871	-0.4
484.302	-3.3
484.734	4.5
485.165	-0.3
485.596	6.4
486.027	0.7
486.457	4.8
486.888	4.9
487.319	3.3
487.75	-3.1
488.181	7.6
488.611	-5
489.042	0
489.472	3.3
489.903	6.8
490.333	-9
490.764	6.4
491.194	1.6
491.624	6.9
492.054	-1.3
492.484	1.3
492.915	-3
493.345	5.6
493.775	-2
494.204	-1.8
494.634	4.9
495.064	0.2
495.494	-5.7
495.924	-1.4
496.353	-11.9
496.783	-1
497.212	-4.7
497.642	-6.4
498.071	-5.7
498.501	-3.3
498.93	-5.3
499.359	-1.3
499.789	-4.1
500.218	-1.7
500.647	-1.6
501.076	6.6
501.505	6.8
501.934	0.9
502.363	-1.1
502.792	-4.3
503.221	-0.1
503.649	0.4
504.078	-3.4
504.507	9.7
504.935	-5.2
505.364	7.3
505.792	0.2
506.221	-10.6
506.649	1.8
507.077	-5.4
507.506	-8.4
507.934	-9.3
508.362	5.5
508.79	0.6
509.218	-4.2
509.646	7.6
510.074	4.8
510.502	-7.9
510.93	-7.2
511.357	-3.5
511.785	-2.6
512.213	-2.7
512.64	-5.2
513.068	-6.8
513.496	3.4
513.923	8.3
514.35	-6.1
514.778	-11.6
515.205	-11.1
515.632	-4.1
516.059	-1.6
516.486	-0.4
516.914	-10
517.341	-4.4
517.768	0.3
518.194	-6.7
518.621	-4.1
519.048	-8.2
519.475	-5.4
519.902	-3.2
520.328	-1.8
520.755	-7.1
521.181	-4.6
521.608	-7.7
522.034	-8.2
522.461	-9.3
522.887	-6.3
523.313	-3.4
523.739	-16
524.165	10.5
524.592	-3.6
525.018	-1.7
525.444	-9
525.869	-2.7
526.295	-2.3
526.721	2
527.147	-10.2
527.573	-2.7
527.998	1.5
528.424	0.6
528.849	1.8
529.275	12.2
529.7	-2.8
530.126	6
530.551	-3.3
530.976	2.5
531.402	-4.6
531.827	-10.9
532.252	0.1
532.677	2.6
533.102	-5.5
533.527	-2.3
533.952	2.1
534.377	-1.3
534.801	1.8
535.226	1
535.651	-16.3
536.076	-11.1
536.5	-0.8
536.925	7.6
537.349	6.2
537.773	-9.8
538.198	-1.9
538.622	-1.2
539.046	-10.4
539.471	-6.9
539.895	1.3
540.319	-0.5
540.743	-2.6
541.167	-6
541.591	-7.4
542.015	2.7
542.438	-4.5
542.862	-4.3
543.286	-1.7
543.71	1.2
544.133	-5.9
544.557	0.1
544.98	-8.5
545.404	0.4
545.827	-9.3
546.25	-1.3
546.674	8.9
547.097	1.2
547.52	1.3
547.943	-7.3
548.366	-3.1
548.789	0.4
549.212	-7.6
549.635	-4.8
550.058	2.7
550.481	-1.6
550.903	-9.9
551.326	6
551.749	0.9
552.171	-0.2
552.594	-1.7
553.016	-2.4
553.438	-2.2
553.861	-2.6
554.283	-3.4
554.705	-6.3
555.128	3.4
555.55	3.1
555.972	-1
556.394	-4.6
556.816	2.7
557.238	-12.3
557.659	-6
558.081	-2.4
558.503	-10.4
558.925	-6.3
559.346	-4.2
559.768	-3.1
560.189	3.5
560.611	-2.4
561.032	-2.1
561.454	-3.9
561.875	3.2
562.296	-3.9
562.718	-3.2
563.139	-7.3
563.56	-6
563.981	-3.5
564.402	-7.6
564.823	2.3
565.244	-0.3
565.664	2.1
566.085	0.9
566.506	-8.2
566.927	-1.3
567.347	-3
567.768	-5.5
568.188	-10.3
568.609	-8.3
569.029	1.2
569.449	-3.7
569.87	-6.5
570.29	-4.6
570.71	-8.2
571.13	-3.8
571.55	-12.1
571.97	3.3
572.39	0.5
572.81	8.7
573.23	-4
573.65	-1.9
574.069	-5.8
574.489	-0.1
574.909	-6.5
575.328	1.8
575.748	0.2
576.167	-5.5
576.587	4.3
577.006	-0.8
577.425	-7.7
577.844	1.9
578.264	-3.5
578.683	-10
579.102	-3
579.521	-2.2
579.94	-3.6
580.359	8
580.778	-6.3
581.196	-7.6
581.615	0.9
582.034	-7.7
582.452	-16.7
582.871	-4.1
583.29	-3.8
583.708	-1
584.126	0.8
584.545	-5.1
584.963	-15.3
585.381	-6.9
585.8	-1.9
586.218	-2.2
586.636	-3.8
587.054	-8.1
587.472	-9.2
587.89	-10.5
588.308	-4.6
588.725	-2.1
589.143	-6.9
589.561	-2.1
589.979	-7.9
590.396	-0.1
590.814	-0.9
591.231	-11.7
591.649	-3.8
592.066	-0.1
592.483	-7.1
592.901	3.2
593.318	-3.4
593.735	-7.5
594.152	3.5
594.569	-4.8
594.986	-8.3
595.403	-4.3
595.82	-4.4
596.237	0.6
596.654	1
597.07	-14.9
597.487	-8.3
597.904	-13.4
598.32	-3.8
598.737	-0.5
599.153	-4.4
599.57	5.5
599.986	-3.9
600.402	-5.5
600.818	-1
601.235	1.2
601.651	-4.4
602.067	-6.7
602.483	3.2
602.899	-9.7
603.315	-3.3
603.73	-4
604.146	-6.7
604.562	-8.9
604.978	-8.5
605.393	-6
605.809	-8.2
606.224	-3.1
606.64	0.8
607.055	-5.2
607.471	-11.5
607.886	-0.3
608.301	-8.7
608.716	-15.1
609.131	-7.2
609.547	0.8
609.962	3
610.377	3.2
610.791	-12.3
611.206	-10.6
611.621	-13.5
612.036	0.4
612.451	2.7
612.865	-6.7
613.28	-0.8
613.694	0
614.109	-0.1
614.523	-3
614.938	-5.7
615.352	-7.6
615.766	-3.5
616.18	12.5
616.595	2.5
617.009	-4.2
617.423	1.3
617.837	-5.2
618.251	1.2
618.664	-3.2
619.078	-4.3
619.492	-4.7
619.906	-1.2
620.319	7.3
620.733	1.6
621.146	-1.1
621.56	6.5
621.973	9.1
622.387	9.2
622.8	8.4
623.213	10.8
623.627	-1.6
624.04	11
624.453	5.6
624.866	20
625.279	14.1
625.692	3.8
626.105	12.5
626.518	4.3
626.93	10.4
627.343	11.5
627.756	13
628.168	18.9
628.581	17.8
628.993	10.3
629.406	14.1
629.818	19.6
630.231	28.2
630.643	18.9
631.055	25.8
631.467	25.2
631.879	26.5
632.291	33.7
632.703	42.7
633.115	34.3
633.527	54.5
633.939	49.6
634.351	57.5
634.763	63.7
635.174	59.3
635.586	64.3
635.997	77.6
636.409	59.1
636.82	74
637.232	84.6
637.643	86
638.054	95.2
638.466	88
638.877	94.2
639.288	91.3
639.699	92
640.11	96.6
640.521	99.3
640.932	105.7
641.343	75
641.753	112.7
642.164	112.8
642.575	117.9
642.986	108
643.396	108.7
643.807	118.3
644.217	118.8
644.627	115.1
645.038	99.5
645.448	109.9
645.858	89.2
646.269	96.7
646.679	109
647.089	105.9
647.499	111.9
647.909	95.1
648.319	101.8
648.728	94.2
649.138	84.6
649.548	94.6
649.958	83.1
650.367	90.8
650.777	76.7
651.186	72.9
651.596	70.7
652.005	71.8
652.415	67.4
652.824	73.5
653.233	66.2
653.642	67.9
654.052	72
654.461	72.5
654.87	67
655.279	70.8
655.688	70.6
656.096	65.4
656.505	66
656.914	72.9
657.323	66.8
657.731	64.4
658.14	62.3
658.548	60.6
658.957	63.2
659.365	55.4
659.774	59.5
660.182	59.3
660.59	62.8
660.998	61.8
661.407	57.5
661.815	59.4
662.223	55.6
662.631	55.2
663.039	57.5
663.446	43.2
663.854	42.2
664.262	49.4
664.67	54.5
665.077	45.2
665.485	38.8
665.892	46
666.3	31.7
666.707	42.2
667.115	33.3
667.522	30.2
667.929	38.2
668.337	22
668.744	26.7
669.151	29.9
669.558	32.4
669.965	21.1
670.372	21.3
670.779	14
671.185	21.8
671.592	15.4
671.999	19.7
672.405	20.1
672.812	8.5
673.219	13.1
673.625	9.5
674.032	5.3
674.438	2.4
674.844	3.6
675.25	9
675.657	-1.3
676.063	6.6
676.469	2
676.875	6.8
677.281	10.3
677.687	1.3
678.093	8.5
678.499	-6.2
678.904	0.1
679.31	-3.5
679.716	4.7
680.121	-10.1
680.527	1.7
680.932	-7.2
681.338	-3.6
681.743	-5.5
682.148	-5.9
682.554	-1.4
682.959	-7.2
683.364	1.2
683.769	8.9
684.174	-4.9
684.579	-10.5
684.984	-3.4
685.389	5.6
685.794	-5.4
686.199	-4.8
686.603	-0.1
687.008	-5.6
687.413	-5.7
687.817	0
688.222	-0.6
688.626	-0.5
689.03	-6.1
689.435	-3.1
689.839	-0.9
690.243	-2.7
690.647	2.1
691.051	0.6
691.456	-4.7
691.859	-2.1
692.263	-1.4
692.667	-8.2
693.071	-0.4
693.475	-8.9
693.879	-4
694.282	-4.3
694.686	-5.2
695.089	0.3
695.493	3.4
695.896	-2.6
696.3	-0.7
696.703	0.9
697.106	-2.1
697.509	-7.1
697.913	-5.6
698.316	3.8
698.719	-0.4
699.122	-1.6
699.525	-0.2
699.928	-4.1
700.33	5.2
700.733	-0.1
701.136	-3.3
701.539	-7.6
701.941	-8.1
702.344	-8.3
702.746	-6.2
703.149	-3.5
703.551	-6.4
703.953	-7.9
704.356	-7.8
704.758	-4.8
705.16	-1.1
705.562	1.3
705.964	3.7
706.366	-11.2
706.768	-2.1
707.17	-5.6
707.572	1.2
707.973	-9.9
708.375	4.3
708.777	-4.4
709.178	-8.5
709.58	-10.2
709.981	-1.5
710.383	-7.2
710.784	8.6
711.186	-4.9
711.587	-10.3
711.988	3.6
712.389	-4.3
712.79	-8
713.191	-11.5
713.592	-6.8
713.993	-5.9
714.394	-4.3
714.795	2.1
715.196	2.5
715.596	-6.8
715.997	-0.9
716.398	-4.4
716.798	-10.1
717.199	-0.8
717.599	-2.5
718	-8.3
718.4	2.3
718.8	-1.6
719.2	-8
719.6	-4.4
720.001	-4.8
720.401	0.9
720.801	-16.5
721.201	-2.5
721.6	3
722	3.8
722.4	-1.1
722.8	0.2
723.199	-4.8
723.599	-19.1
723.998	-10.2
724.398	-18.5
724.797	-7.5
725.197	-6.8
725.596	-5.5
725.995	-6.1
726.394	-17.9
726.794	-2.6
727.193	-3.9
727.592	-4.6
727.991	-2.2
728.39	-10.3
728.789	-8.1
729.187	0.3
729.586	-0.4
729.985	-1.2
730.383	-7.7
730.782	4.5
731.181	-3.1
731.579	0
731.977	-10.7
732.376	-6.4
732.774	-2
733.172	0.9
733.571	-8.1
733.969	-6.1
734.367	-1.5
734.765	2
735.163	-1.1
735.561	0.3
735.959	19.6
736.356	3.3
736.754	6.3
737.152	10.8
737.55	-0.4
737.947	1
738.345	10
738.742	4.8
739.14	9.8
739.537	12.4
739.934	19.3
740.331	9.7
740.729	15.5
741.126	12.5
741.523	12.4
741.92	19.7
742.317	17.9
742.714	10.5
743.111	15.3
743.507	18
743.904	10.2
744.301	15.5
744.697	10.6
745.094	21.4
745.491	9.2
745.887	27.2
746.283	31.3
746.68	12.1
747.076	23.5
747.472	19.5
747.869	16.7
748.265	22.5
748.661	9.7
749.057	5.5
749.453	17.6
749.849	21.7
750.244	18.7
750.64	12.5
751.036	11.9
751.432	25.8
751.827	23.9
752.223	15.5
752.618	23.9
753.014	12
753.409	15.6
753.805	19.1
754.2	12.7
754.595	20.2
754.99	20.5
755.385	31.2
755.78	20.2
756.175	31.7
756.57	23.9
756.965	28.1
757.36	11.7
757.755	22.7
758.15	31.7
758.544	28.5
758.939	34.5
759.334	35.5
759.728	32.4
760.122	45.7
760.517	40.3
760.911	38.6
761.306	34.2
761.7	41.1
762.094	36.5
762.488	44
762.882	35.1
763.276	35.7
763.67	28.6
764.064	46.2
764.458	39.8
764.852	49.9
765.245	44.5
765.639	57.6
766.033	50.4
766.426	51.2
766.82	59.3
767.213	56.2
767.606	61.5
768	54.9
768.393	60.6
768.786	52.8
769.179	51.7
769.572	64.9
769.966	62.2
770.358	51.5
770.751	53.1
771.144	62.9
771.537	60.1
771.93	67.4
772.323	60.9
772.715	68.8
773.108	54.9
773.5	66.2
773.893	53.7
774.285	59.4
774.678	43.1
775.07	48.5
775.462	35.5
775.854	40.5
776.247	35.5
776.639	37.9
777.031	37.4
777.423	43.5
777.815	39.4
778.207	38.7
778.598	51.9
778.99	45.2
779.382	45.1
779.773	55
780.165	53.5
780.557	54.1
780.948	49.6
781.339	64.5
781.731	72.4
782.122	71.5
782.513	61.5
782.905	61.6
783.296	70.6
783.687	73.5
784.078	56
784.469	68.4
784.86	58.2
785.251	60.5
785.641	63.3
786.032	62.4
786.423	54.3
786.813	65.6
787.204	60.5
787.594	50.2
787.985	38.1
788.375	58.6
788.766	47.6
789.156	30.8
789.546	42.3
789.936	34.6
790.326	43.2
790.717	31.7
791.107	30.6
791.497	33.6
791.886	30.9
792.276	31.5
792.666	21.3
793.056	19.5
793.445	14.2
793.835	20.3
794.225	29.1
794.614	19.8
795.004	24
795.393	18.1
795.782	18.3
796.172	15.2
796.561	11.6
796.95	16.4
797.339	20.4
797.728	7.3
798.117	20.2
798.506	22.5
798.895	14.3
799.284	16.7
799.673	15.1
800.061	16.9
800.45	16
800.839	6.5
801.227	6
801.616	9.9
802.004	15
802.392	12.3
802.781	3.8
803.169	9.7
803.557	9.9
803.945	7.9
804.333	10.7
804.721	2.7
805.109	8.8
805.497	11.6
805.885	-1.9
806.273	6.9
806.661	3.6
807.048	-2
807.436	8.4
807.824	2.5
808.211	-9.3
808.599	-5.9
808.986	-1.4
809.373	6.2
809.761	3.3
810.148	1.4
810.535	0.4
810.922	-6.7
811.309	6
811.696	-5.1
812.083	-4.7
812.47	-7.4
812.857	2.7
813.244	-5.5
813.631	-0.2
814.017	-1.1
814.404	-0.5
814.791	-14.8
815.177	2.9
815.564	0
815.95	-5.1
816.336	3.6
816.723	3.5
817.109	-11
817.495	-6.3
817.881	6.1
818.267	-6.7
818.653	-6.8
819.039	-5.7
819.425	-5.6
819.811	-0.9
820.197	-3.6
820.582	1.7
820.968	-1.8
821.354	4.1
821.739	-5.7
822.125	-5.4
822.51	-6
822.895	0.1
823.281	-11.4
823.666	-1.3
824.051	1.8
824.436	-1.3
824.822	-4.7
825.207	-15
825.592	-3.3
825.976	-17.3
826.361	-10.3
826.746	-4.8
827.131	-7.6
827.516	-7.5
827.9	-1.4
828.285	-11.3
828.669	-9.3
829.054	4.9
829.438	0.7
829.823	-6.9
830.207	-4.8
830.591	-1.3
830.975	-3.4
831.36	-9.8
831.744	-19.6
832.128	-14.4
832.512	-1.7
832.895	-8.2
833.279	-3.3
833.663	-6.5
834.047	-0.8
834.431	-11
834.814	-10.2
835.198	-10
835.581	-9.6
835.965	-4.1
836.348	-11.1
836.731	-7.1
837.115	-7.7
837.498	-6.7
837.881	2.5
838.264	4.1
838.647	-3.5
839.03	-0.6
839.413	-12.6
839.796	-0.2
840.179	-8.9
840.562	-7.7
840.944	-6.8
841.327	-4.4
841.71	-3.8
842.092	1.6
842.475	2.5
842.857	-8.4
843.24	-0.9
843.622	-13.5
844.004	-11.1
844.386	2.8
844.769	-5.6
845.151	-2.5
845.533	1.8
845.915	-8.1
846.297	-2.2
846.678	-10.2
847.06	-6.5
847.442	-5.6
847.824	-12.8
848.205	-7.6
848.587	-2.9
848.968	-9
849.35	3
849.731	-3.3
850.113	-4.6
850.494	-9.8
850.875	-0.1
851.256	-6.6
851.638	-8.7
852.019	-9.2
852.4	-5.5
852.781	-7.6
853.161	-4.5
853.542	-12.8
853.923	-7.6
854.304	-7.9
854.685	2
855.065	7.4
855.446	-13
855.826	-6.8
856.207	-10.5
856.587	-0.5
856.967	-16.6
857.348	-13.6
857.728	-5.1
858.108	-6.8
858.488	2.1
858.868	0.8
859.248	-17.1
859.628	-15.5
860.008	-8.9
860.388	-3.7
860.768	-2.2
861.147	-3.6
861.527	-7.9
861.907	-7
862.286	-6.4
862.666	-5.7
863.045	0.5
863.424	-1.8
863.804	-8.3
864.183	-13.4
864.562	-3.4
864.941	-6.8
865.32	-2.5
865.699	-4
866.078	-1.7
866.457	-12.1
866.836	-8.2
867.215	-3.4
867.594	-9
867.972	-11.8
868.351	-2.5
868.729	-8.4
869.108	2.9
869.486	-17.6
869.865	-7.5
870.243	-5
870.621	-7.3
871	-5.8
871.378	-13.4
871.756	-9.2
872.134	-1.2
872.512	-7.2
872.89	-9
873.268	-10.6
873.646	-11.8
874.023	-1.7
874.401	-4.3
874.779	-2.4
875.156	1.4
875.534	-5.1
875.911	-0.8
876.289	-6.5
876.666	-2.9
877.043	-3.5
877.421	-6
877.798	-2.6
878.175	-6.4
878.552	-2.1
878.929	-5.1
879.306	-9.8
879.683	-3.7
880.06	0.1
880.437	-15.9
880.813	-5.3
881.19	-1.7
881.567	-2.6
881.943	-15.9
882.32	1.3
882.696	1.8
883.073	-3.8
883.449	-11.1
883.825	-5.7
884.202	-3
884.578	-7.3
884.954	-4.2
885.33	-8.2
885.706	-2.9
886.082	-6.9
886.458	-0.6
886.834	-9.4
887.209	-2.9
887.585	-9.3
887.961	-7.8
888.336	1.6
888.712	-2.4
889.087	-11.7
889.463	-13.2
889.838	-9.8
890.213	-4.2
890.589	-0.7
890.964	-8.1
891.339	-8.6
891.714	-15.9
892.089	-5.1
892.464	-5.4
892.839	-0.3
893.214	-12.7
893.589	-10.6
893.963	-13
894.338	-3.9
894.713	-5.7
895.087	-4.1
895.462	-12.1
895.836	5.3
896.211	3
896.585	-1.2
896.959	-1.2
897.334	-8.6
897.708	1.1
898.082	-1.1
898.456	-11.7
898.83	-8.3
899.204	0.4
899.578	2.2
899.952	-7.2
900.325	0
900.699	3.4
901.073	3.3
901.446	-5.4
901.82	-4.2
902.193	-5.4
902.567	-2.8
902.94	3.4
903.313	-7.2
903.687	-3.5
904.06	7.1
904.433	0.6
904.806	-2.9
905.179	-11.8
905.552	0.2
905.925	3.5
906.298	-3.1
906.671	-4.5
907.043	-0.9
907.416	-5.3
907.789	10.3
908.161	-3.3
908.534	-3.2
908.906	-12.5
909.279	-1.8
909.651	-4.4
910.023	-3.3
910.396	-4.2
910.768	-0.5
911.14	-6.7
911.512	-4.1
911.884	-14.1
912.256	-7.8
912.628	2.8
912.999	1.2
913.371	-7.9
913.743	-2.7
914.115	5.3
914.486	-8
914.858	-5.8
915.229	-7.4
915.601	-2.6
915.972	7.3
916.343	-7.6
916.715	-2.2
917.086	-9.9
917.457	-2.3
917.828	-0.9
918.199	-5.9
918.57	-1
918.941	-6.4
919.312	1.7
919.682	-7.7
920.053	1.4
920.424	-2.6
920.794	-4
921.165	-3.3
921.536	-4.7
921.906	3.2
922.276	4.7
922.647	-18.4
923.017	2.8
923.387	3.4
923.757	6.8
924.127	0.1
924.497	1
924.867	-2.5
925.237	-7.2
925.607	-4.8
925.977	2
926.347	-1.1
926.716	8.1
927.086	4
927.456	0.6
927.825	-1.8
928.195	0.1
928.564	4.2
928.933	0.9
929.303	4.5
929.672	2.1
930.041	2.5
930.41	6
930.779	-3.1
931.148	8.6
931.517	4.4
931.886	-3.6
932.255	6.5
932.624	-2.5
932.993	5.9
933.361	3
933.73	-4
934.098	-2.2
934.467	2.5
934.835	9.3
935.204	-11.2
935.572	-22.5
935.94	3.4
936.308	-9.1
936.677	0.4
937.045	9.8
937.413	8.7
937.781	1.2
938.149	5.8
938.516	3.3
938.884	-2.5
939.252	2.4
939.62	6.9
939.987	8
940.355	-7.3
940.722	1.1
941.09	5.4
941.457	0.1
941.825	-2.1
942.192	-0.6
942.559	-4.5
942.926	1.4
943.293	1.7
943.66	0.1
944.027	-5.9
944.394	0
944.761	-2.9
945.128	-8
945.495	8.1
945.861	3.6
946.228	-6.7
946.595	-3
946.961	-3
947.328	-0.9
947.694	0.4
948.06	-4.3
948.427	-4.8
948.793	-7.7
949.159	-3.1
949.525	-0.7
949.891	-8.2
950.257	-1.9
950.623	2
950.989	12.9
951.355	-0.9
951.721	-1.9
952.087	-4.6
952.452	-3.8
952.818	-0.9
953.183	0.6
953.549	-2.2
953.914	0.9
954.28	-10.3
954.645	-8.7
955.01	4.7
955.375	-7.2
955.741	8
956.106	7.2
956.471	-6.3
956.836	-14.9
957.201	-2.1
957.566	-0.1
957.93	-4.9
958.295	-6.9
958.66	1.6
959.024	7.9
959.389	-3.6
959.753	0.8
960.118	-1.7
960.482	-1.9
960.847	2.4
961.211	3.6
961.575	-1.3
961.939	-12.2
962.303	-7.9
962.667	-0.1
963.031	-4.2
963.395	-7.1
963.759	4.1
964.123	0.8
964.487	3.7
964.851	-0.9
965.214	-0.4
965.578	-11
965.941	-6.7
966.305	-12.9
966.668	-7.4
967.032	-4
967.395	0.2
967.758	-0.5
968.121	-4.4
968.484	-4.9
968.847	-9.6
969.21	4.2
969.573	0.6
969.936	-10.6
970.299	-3.9
970.662	-3
971.025	-13.5
971.387	-6.6
971.75	-3.9
972.112	4.8
972.475	4.2
972.837	0.3
973.2	-5.1
973.562	1.7
973.924	1.2
974.286	4.5
974.649	-3.5
975.011	1.3
975.373	-10.1
975.735	-5.3
976.097	-11.2
976.458	0.5
976.82	-11.9
977.182	4.2
977.544	-0.9
977.905	0.3
978.267	-1.8
978.628	-7.4
978.99	-1.8
979.351	-3.3
979.712	-6.9
980.074	-13.7
980.435	-4
980.796	-3.6
981.157	-1.7
981.518	-4.8
981.879	-17.6
982.24	-6.2
982.601	-3.5
982.962	-16.1
983.323	-2.4
983.683	-6.1
984.044	2.6
984.404	-10
984.765	-1.2
985.125	-5.1
985.486	1.4
985.846	1.4
986.206	-4.6
986.567	-8.6
986.927	-6.6
987.287	-4.4
987.647	-8.6
988.007	3.9
988.367	-13.3
988.727	-8.6
989.087	-2.2
989.446	0.9
989.806	-12.8
990.166	-8.4
990.525	-3.4
990.885	-18.3
991.244	0.1
991.604	0.7
991.963	3.4
992.322	-13
992.682	-11.3
993.041	-10.9
993.4	2.6
993.759	-10.5
994.118	-16.1
994.477	-8
994.836	-9.7
995.195	-13.9
995.553	-13.8
995.912	-3.3
996.271	-14.2
996.629	-3.6
996.988	-5.1
997.346	-9
997.705	-8.6
998.063	-8.3
998.422	-8.9
998.78	-6.1
999.138	-7.2
999.496	-10.8
999.854	-4.4
1000.212	-13.2
1000.57	-3.7
1000.928	-9.3
1001.286	1.3
1001.644	-13.1
1002.001	-1.8
1002.359	-9.3
1002.717	-2
1003.074	-8.5
1003.432	-6.7
1003.789	-4
1004.147	-1.6
1004.504	-6.6
1004.861	-7.6
1005.218	-1.5
1005.576	-5.6
1005.933	-9.1
1006.29	-10
1006.647	-11.4
1007.004	-0.3
1007.36	-6.2
1007.717	-7.6
1008.074	-6.4
1008.431	-4.6
1008.787	-2.6
1009.144	-2.4
1009.5	-16.1
1009.857	-5.5
1010.213	-11.6
1010.569	-10.7
1010.926	-7.7
1011.282	3.8
1011.638	-11.1
1011.994	-0.8
1012.35	-5.6
1012.706	-18.8
1013.062	-16.5
1013.418	-9.1
1013.774	0.9
1014.13	-0.8
1014.485	-13.8
1014.841	-7.4
1015.197	-9.1
1015.552	-6.5
1015.907	-10.4
1016.263	-0.6
1016.618	-9
1016.974	6.7
1017.329	-2
1017.684	-4.7
1018.039	-14.7
1018.394	-13.6
1018.749	-16.7
1019.104	-3.5
1019.459	-6.5
1019.814	-7.8
1020.168	-9.9
1020.523	-7.1
1020.878	-12.7
1021.232	-4.1
1021.587	-4.2
1021.941	-14.5
1022.296	-15.6
1022.65	-2.5
1023.004	-8.1
1023.359	-12.9
1023.713	0.9
1024.067	-0.3
1024.421	1.6
1024.775	-0.3
1025.129	-7.7
1025.483	-6.6
1025.837	-13.1
1026.19	-3.5
1026.544	-14.7
1026.898	-13
1027.251	-5.5
1027.605	-5.6
1027.958	-12.9
1028.312	-2
1028.665	-7.6
1029.018	-2.4
1029.372	5.2
1029.725	-9.5
1030.078	-10.3
1030.431	-9.8
1030.784	-5.8
1031.137	-12.7
1031.49	0.4
1031.843	-11.5
1032.195	-12.2
1032.548	-12.6
1032.901	-7.5
1033.253	-3
1033.606	-5.8
1033.958	-11.1
1034.311	-7
1034.663	-2.9
1035.016	-1.1
1035.368	-8
1035.72	6.6
1036.072	-6.9
1036.424	-3.2
1036.776	-8.8
1037.128	-3.6
1037.48	-3.4
